File: week4/XRD_data_Mo_anode.csv
# 0-35 degrees, NaCl crystal, 35keV, 1 mA, Mo anode
# angle/deg,CR /s
2,4.2
2.04,3.4
2.08,2.4
2.12,3
2.16,3.8
2.2,4.6
2.24,4.8
2.28,5.2
2.32,4.4
2.36,7.2
2.4,5.6
2.44,6.6
2.48,4
2.52,5.6
2.56,4.8
2.6,7
2.64,8.2
2.68,5.4
2.72,7.6
2.76,6.6
2.8,5.8
2.84,7
2.88,6
2.92,8.4
2.96,7.8
3,12.6
3.04,13.6
3.08,12
3.12,17.2
3.16,20.6
3.2,28.2
3.24,34.8
3.28,46.2
3.32,56.2
3.36,75.2
3.4,100.8
3.44,132
3.48,149
3.52,191.6
3.56,232.6
3.6,270
3.64,296.8
3.68,323.2
3.72,356.4
3.76,350.6
3.8,387
3.84,396.6
3.88,406.4
3.92,440.4
3.96,439.2
4,444.8
4.04,467
4.08,477.6
4.12,489
4.16,495.4
4.2,499.6
4.24,492.8
4.28,510.4
4.32,499
4.36,522
4.4,513
4.44,530.2
4.48,526.6
4.52,510.4
4.56,529.6
4.6,513
4.64,511.2
4.68,528
4.72,525.8
4.76,517.4
4.8,524.8
4.84,518.2
4.88,514
4.92,513.6
4.96,515.4
5,490.8
5.04,488.4
5.08,501.6
5.12,503
5.16,519
5.2,496
5.24,506.2
5.28,498.8
5.32,479.6
5.36,468
5.4,492
5.46,463.6
5.54,457.8
5.62,450.2
5.7,442.6
5.78,436.2
5.86,441
5.94,441.6
6.02,434.8
6.06,468.8
6.1,465.6
6.14,511.6
6.18,533.8
6.22,613.2
6.26,695.2
6.3,789.8
6.34,853.6
6.38,941.8
6.42,929.8
6.46,881.2
6.5,808.6
6.54,713.6
6.58,621.6
6.62,549.2
6.66,522.6
6.7,511.8
6.74,516.8
6.78,529.4
6.82,527
6.86,584.4
6.9,631.8
6.94,718.4
6.98,854.8
7.02,1045.6
7.06,1283.2
7.1,1588.4
7.14,1799.8
7.18,1959.4
7.22,1947
7.26,1911.4
7.3,1674
7.34,1411.6
7.38,1122.4
7.42,856
7.46,702.8
7.5,582.6
7.54,529.8
7.58,475.2
7.62,443.8
7.66,396.8
7.7,389.2
7.74,353
7.78,339
7.82,336.6
7.86,336.2
7.9,327.2
7.94,330.6
7.98,318.4
8.02,305.2
8.06,313.8
8.1,318.8
8.14,313.6
8.18,294.6
8.22,295.4
8.26,286
8.3,293.2
8.34,280
8.38,288.6
8.42,274.4
8.46,279.8
8.5,260.2
8.54,265.2
8.58,257.2
8.62,256.2
8.66,262.6
8.7,242.8
8.74,247.4
8.78,254.2
8.82,242.6
8.86,238.8
8.9,233.6
8.94,227.4
8.98,232.4
9.02,239
9.06,221
9.1,229.4
9.14,212.6
9.18,203.6
9.22,212.2
9.26,209
9.3,193.2
9.34,190.8
9.38,189.2
9.42,184.2
9.46,177
9.5,177.6
9.54,184.4
9.58,178.2
9.62,175.8
9.66,180
9.7,167.8
9.74,164.8
9.78,156.2
9.82,157
9.86,159.2
9.9,148.4
9.94,151.8
9.98,144.6
10.02,148.6
10.06,150.8
10.1,142
10.14,153
10.18,142.8
10.22,142.8
10.26,135.6
10.3,137.2
10.34,132.2
10.38,137.2
10.42,132.8
10.46,128
10.5,132.4
10.54,126.4
10.58,122.2
10.62,130.8
10.66,123
10.7,114.4
10.74,123.4
10.78,114.6
10.82,117
10.86,114.4
10.9,119.2
10.94,117.4
10.98,112.8
11.02,116.4
11.06,119.6
11.1,119.4
11.14,101.8
11.18,110.2
11.22,105.8
11.26,109.4
11.3,104
11.34,115.8
11.38,109
11.42,115.4
11.46,106.6
11.5,106.8
11.54,105.4
11.58,99.2
11.62,102.4
11.66,102.2
11.7,102.8
11.74,104.6
11.78,95.2
11.82,104
11.86,103.2
11.9,102.2
11.94,94.8
11.98,109.4
12.02,100.2
12.06,101.8
12.1,97.4
12.14,104.4
12.18,94.6
12.22,97
12.26,102.2
12.3,95
12.34,93.6
12.38,95.6
12.42,93
12.46,102.8
12.5,96.2
12.54,112.2
12.58,120
12.62,136.6
12.66,131.8
12.7,150.2
12.74,180.8
12.78,195
12.82,229
12.86,253.2
12.9,259
12.94,274.4
12.98,244.4
13.02,198
13.06,163.6
13.1,138.2
13.14,106.4
13.18,108.4
13.22,104
13.26,94.8
13.3,97.6
13.34,95
13.38,89.2
13.42,88.4
13.46,94.8
13.5,94
13.54,91.4
13.58,87.8
13.62,89.8
13.66,90.2
13.7,90.2
13.74,95.4
13.78,92.4
13.82,85.4
13.86,86
13.9,81.4
13.94,83.6
13.98,90.4
14.02,92.2
14.06,97.6
14.1,100.2
14.14,97.6
14.18,110.2
14.22,116.2
14.26,129.2
14.3,169
14.34,221
14.38,307.6
14.42,428.4
14.46,526.8
14.5,615.2
14.54,671
14.58,652
14.62,592.8
14.66,505.4
14.7,361.6
14.74,259.8
14.78,182.6
14.82,114.4
14.86,95.2
14.9,79.6
14.94,85.8
14.98,75.8
15.02,76.4
15.06,84.6
15.1,65.8
15.14,78.4
15.18,71.2
15.22,73.6
15.26,70.4
15.3,72.2
15.34,71.2
15.38,67.6
15.42,67.4
15.46,71.8
15.5,72.6
15.54,68.6
15.58,66.6
15.62,72.6
15.66,72.2
15.7,69.4
15.74,69.6
15.78,73.4
15.82,59.8
15.86,76.4
15.9,59
15.94,58.6
15.98,63.8
16.02,56.4
16.06,61.4
16.1,53
16.14,61.8
16.18,65
16.22,62
16.26,56.8
16.3,64.8
16.34,59.2
16.38,61.4
16.42,62.4
16.46,56.8
16.5,51.2
16.54,64.4
16.58,62.6
16.62,59.2
16.66,55.4
16.7,54
16.74,51.4
16.78,51.4
16.82,49.4
16.86,47.2
16.9,50.4
16.94,53.8
16.98,46.6
17.02,54
17.06,52.4
17.1,53
17.14,49.4
17.18,52.6
17.22,54.8
17.26,48.4
17.3,51.4
17.34,52.4
17.38,51.2
17.42,54.4
17.46,48.2
17.5,53.8
17.54,49.6
17.58,46
17.62,47
17.66,48.6
17.7,42
17.74,39.8
17.78,46.8
17.82,43.8
17.86,46.8
17.9,38.8
17.94,50.4
17.98,39.4
18.02,46
18.06,41.8
18.1,47.4
18.14,46.8
18.18,49.6
18.22,44.6
18.26,41.2
18.3,38.4
18.34,39.4
18.38,38
18.42,43.2
18.46,39.6
18.5,37.4
18.54,43.4
18.58,38.8
18.62,40.6
18.66,42.4
18.7,41.8
18.74,41.6
18.78,40
18.82,40
18.86,39.8
18.9,42.2
18.94,36.8
18.98,39.8
19.02,42.2
19.06,33.6
19.1,42.4
19.14,44.8
19.18,48.2
19.22,38.2
19.26,45.2
19.3,45.8
19.34,43.8
19.38,45.2
19.42,49.6
19.46,61
19.5,57.6
19.54,67.2
19.58,73.8
19.62,68.4
19.66,64.4
19.7,55.2
19.74,54.2
19.78,47
19.82,39
19.86,35
19.9,34
19.94,34
19.98,37.8
20.02,31.8
20.06,33.8
20.1,35
20.14,34.8
20.18,32.6
20.22,30.4
20.26,30.8
20.3,30.6
20.34,32
20.38,33.8
20.42,30.2
20.46,33
20.5,32.2
20.54,30.4
20.58,27.8
20.62,31.2
20.66,28.6
20.7,30.8
20.74,28.8
20.78,28.4
20.82,33
20.86,31.8
20.9,32.2
20.94,30.2
20.98,32.6
21.02,32.4
21.06,31.8
21.1,29.6
21.14,30.2
21.18,29.8
21.22,31.8
21.26,28.6
21.3,29.8
21.34,29
21.38,33.2
21.42,26.4
21.46,29.8
21.5,29.6
21.54,30.4
21.58,32
21.62,27.8
21.66,34.8
21.7,35
21.74,32.4
21.78,32
21.82,40.2
21.86,46.6
21.9,53.2
21.94,66.8
21.98,78.2
22.02,102.4
22.06,124.2
22.1,128.6
22.14,155
22.18,137.8
22.22,126
22.26,110.6
22.3,87
22.34,68.4
22.38,63.4
22.42,44
22.46,39.4
22.5,28
22.54,28
22.58,26.8
22.62,29
22.66,27.6
22.7,23.2
22.74,29.2
22.78,24.2
22.82,28.6
22.86,22
22.9,26.4
22.94,25.2
22.98,24.4
23.02,23.8
23.06,28
23.1,23
23.14,24.6
23.18,25.2
23.22,21.4
23.26,26.8
23.3,26.2
23.34,23.4
23.38,22.2
23.42,20.8
23.46,26
23.5,28.2
23.54,21.2
23.58,25
23.62,26.4
23.66,22.2
23.7,22.8
23.74,25.4
23.78,22.2
23.82,22.8
23.86,20.6
23.9,20.8
23.94,22.4
23.98,21.8
24.02,19.8
24.06,20
24.1,19.6
24.14,20.6
24.18,20.2
24.22,26.6
24.26,20.4
24.3,20.6
24.34,24.6
24.38,22.4
24.42,20.4
24.46,20
24.5,21.6
24.54,17.4
24.58,18.8
24.62,21
24.66,21.6
24.7,16.8
24.74,20.2
24.78,20
24.82,18.8
24.86,18.4
24.9,21.2
24.94,18.4
24.98,19.4
25.02,20.4
25.06,17.2
25.1,18.4
25.14,19.2
25.18,22.2
25.22,20.2
25.26,19.4
25.3,22.2
25.34,16.6
25.38,16.6
25.42,18.8
25.46,18
25.5,17.4
25.54,17.8
25.58,16.4
25.62,23.8
25.66,15
25.7,21
25.74,18.4
25.78,19.4
25.82,18.8
25.86,17.2
25.9,21.2
25.94,19.2
25.98,17
26.02,17.8
26.06,16.4
26.1,18.8
26.14,17.8
26.18,19.6
26.22,19.2
26.26,21.6
26.3,21.8
26.34,18.4
26.38,22.6
26.42,19.8
26.46,26.4
26.5,20
26.54,25.8
26.58,18
26.62,23.6
26.66,20.6
26.7,22.4
26.74,22.8
26.78,17.8
26.82,15.2
26.86,18
26.9,14
26.94,20.8
26.98,18.6
27.02,19.8
27.06,14.8
27.1,16.8
27.14,16.6
27.18,18.2
27.22,17
27.26,17.6
27.3,16.6
27.34,15.2
27.38,14.6
27.42,16.2
27.46,17.6
27.5,18.8
27.54,15.8
27.58,16.2
27.62,16.8
27.66,15
27.7,15.6
27.74,12.2
27.78,16.8
27.82,17.2
27.86,13.4
27.9,13.2
27.94,14.8
27.98,14
28.02,14
28.06,15.8
28.1,16
28.14,16.2
28.18,17.6
28.22,15.8
28.26,17
28.3,14.2
28.34,17.2
28.38,13.8
28.42,16.2
28.46,15.8
28.5,13.6
28.54,13.4
28.58,15
28.62,12.8
28.66,15.4
28.7,14.4
28.74,12.2
28.78,14.2
28.82,13.2
28.86,16.4
28.9,13.8
28.94,17
28.98,15.4
29.02,12.6
29.06,14.4
29.1,16
29.14,15.6
29.18,16.4
29.22,17
29.26,17
29.3,14
29.34,13
29.38,15.4
29.42,15.2
29.46,15.2
29.5,13.2
29.54,16.4
29.58,14.2
29.62,14.8
29.66,15.6
29.7,16.4
29.74,17
29.78,17.6
29.82,15
29.86,14.8
29.9,21
29.94,19.4
29.98,24
30.02,26.4
30.06,25
30.1,26
30.14,29.6
30.18,34.8
30.22,29.6
30.26,26
30.3,27
30.34,22
30.38,22.2
30.42,22.6
30.46,15.6
30.5,15.6
30.54,18.2
30.58,13.8
30.62,12.4
30.66,13.6
30.7,14.8
30.74,14.6
30.78,11.8
30.82,14.6
30.86,11.8
30.9,15.4
30.94,13.6
30.98,16.4
31.02,10.2
31.06,13.8
31.1,10.8
31.14,12.4
31.18,13
31.22,11
31.26,12.6
31.3,10.6
31.34,11.2
31.38,13
31.42,13.4
31.46,11.4
31.5,13.4
31.54,14
31.58,11
31.62,12.2
31.66,11.4
31.7,16
31.74,9.6
31.78,13.6
31.82,14.6
31.86,11.2
31.9,19
31.94,13.8
31.98,9.8
32.02,12.6
32.06,12
32.1,10
32.14,11
32.18,10.2
32.22,12.2
32.26,12.2
32.3,8.6
32.34,13
32.38,10.6
32.42,9.6
32.46,10
32.5,11.8
32.54,9.8
32.58,10.6
32.62,8.6
32.66,15.4
32.7,12.8
32.74,11.8
32.78,11.2
32.82,9.6
32.86,11
32.9,12
32.94,10.4
32.98,8.4
33.02,13.2
33.06,11
33.1,8
33.14,7.6
33.18,13.8
33.22,11.2
33.26,11.2
33.3,9.8
33.34,10.8
33.38,12.2
33.42,11.2
33.46,11.6
33.5,8.8
33.54,9.4
33.58,11.8
33.62,10.2
33.66,14.6
33.7,12.2
33.74,10.8
33.78,11.2
33.82,8.2
33.86,10
33.9,12
33.94,10
33.98,12
34.02,11
34.06,12.8
34.1,11.8
34.14,11.4
34.18,10.8
34.22,12
34.26,9.4
34.3,7.4
34.34,11.4
34.38,9.8
34.42,8.8
34.46,11.2
34.5,9.2
34.54,10.8
34.58,8.6
34.62,9.6
34.66,12.8
34.7,10
34.74,10.8
34.78,7.4
34.82,8
34.86,8.8
34.9,9.8
34.94,10.4
34.98,9.6
35,10